Folder: findata/data/stocks

File: TGA.csv
Date,High,Low,Open,Close,Volume,Adj Close
2010-01-04,3.49,3.33,3.35,3.44,91900.0,3.06232
2010-01-20,3.58,3.52,3.54,3.54,35300.0,3.15134
2010-02-04,3.93,3.52,3.84,3.63,281100.0,3.23146
2010-02-22,4.08,3.96,4.02,4.04,63300.0,3.59644
2010-03-09,4.29,3.95,3.95,4.28,163400.0,3.81009
2010-03-24,4.98,4.65,4.72,4.91,294300.0,4.37092
2010-04-09,6.39,6.03,6.19,6.37,190800.0,5.67063
2010-04-26,7.31,7.2,7.22,7.27,187600.0,6.47182
2010-05-11,7.5,7.06,7.17,7.36,305100.0,6.55193
2010-05-26,6.81,6.55,6.55,6.58,121700.0,5.85757
2010-06-11,7.85,7.62,7.62,7.85,242100.0,6.98814
2010-06-28,7.78,7.49,7.65,7.66,224600.0,6.819
2010-07-14,7.65,7.52,7.61,7.53,74400.0,6.70327
2010-07-29,7.54,7.33,7.46,7.4,119200.0,6.58754
2010-08-13,7.51,7.43,7.49,7.43,42800.0,6.61425
2010-08-30,7.6,7.34,7.6,7.34,41900.0,6.53413
2010-09-15,7.91,7.67,7.83,7.79,117700.0,6.93472
2010-09-30,9.55,9.16,9.16,9.46,195600.0,8.42137
2010-10-15,10.96,10.35,10.96,10.47,269600.0,9.32048
2010-11-01,11.08,10.64,10.69,10.96,285400.0,9.75668
2010-11-16,15.12,13.58,15.1,13.77,1185700.0,12.2582
2010-12-02,18.05,17.25,17.29,17.99,775900.0,16.0148
2010-12-17,15.28,14.51,14.58,15.08,983000.0,13.4243
2011-01-04,16.06,15.51,15.92,15.79,450900.0,14.0564
2011-01-20,14.54,13.77,14.38,14.47,581800.0,12.8813
2011-02-04,13.57,13.23,13.3,13.53,536000.0,12.0445
2011-02-22,14.77,13.58,14.36,13.77,774300.0,12.2582
2011-03-09,15.13,14.35,15.02,14.45,521500.0,12.8635
2011-03-24,14.16,13.82,14.16,13.89,109800.0,12.365
2011-04-08,15.59,15.22,15.34,15.41,178800.0,13.7181
2011-04-26,14.22,13.78,14.01,14.19,95300.0,12.6321
2011-05-11,14.03,13.35,13.98,13.45,144400.0,11.9733
2011-05-26,13.74,13.4,13.45,13.74,102700.0,12.2315
2011-06-13,12.94,12.38,12.85,12.54,170200.0,11.1632
2011-06-28,11.04,10.48,10.55,10.99,174300.0,9.78339
2011-07-14,12.15,11.69,11.96,11.76,94200.0,10.4689
2011-07-29,11.02,10.65,10.87,10.71,124900.0,9.53413
2011-08-15,9.97,9.43,9.46,9.96,116300.0,8.86648
2011-08-30,9.63,9.29,9.56,9.52,110600.0,8.47478
2011-09-15,9.89,9.36,9.58,9.88,100200.0,8.79526
2011-09-30,8.56,7.95,8.36,8.03,168100.0,7.14837
2011-10-17,9.03,8.71,9.0,8.82,87100.0,7.85164
2011-11-01,9.86,9.45,9.75,9.71,126500.0,8.64392
2011-11-16,9.5,9.12,9.27,9.17,108100.0,8.16321
2011-12-02,8.33,7.95,8.02,8.28,162900.0,7.37092
2011-12-19,7.31,6.95,7.13,7.19,130200.0,6.4006
2012-01-05,8.78,8.1,8.1,8.73,181600.0,7.77152
2012-01-23,9.97,9.41,9.41,9.77,133200.0,8.69734
2012-02-07,10.43,9.94,10.15,10.33,126300.0,9.19585
2012-02-23,10.78,10.41,10.46,10.75,60900.0,9.56974
2012-03-09,11.98,11.65,11.8,11.72,121800.0,10.4332
2012-03-26,12.5,12.06,12.07,12.4,154100.0,11.0386
2012-04-11,13.15,12.38,12.47,13.1,198600.0,11.6617
2012-04-26,13.96,13.38,13.47,13.89,114900.0,12.365
2012-05-11,12.61,11.7,11.7,12.28,123300.0,10.9318
2012-05-29,11.18,10.5,10.63,10.54,89200.0,9.3828
2012-06-13,10.15,9.7,10.01,9.8,244400.0,8.72404
2012-06-28,8.49,7.9,7.91,8.43,229700.0,7.50446
2012-07-16,9.02,8.68,9.0,8.79,74400.0,7.82493
2012-07-31,9.98,9.53,9.85,9.58,119800.0,8.5282
2012-08-15,9.51,9.33,9.42,9.47,59700.0,8.43027
2012-08-30,10.54,10.23,10.46,10.26,115000.0,9.13354
2012-09-17,11.98,11.51,11.51,11.78,157400.0,10.4867
2012-10-02,11.62,11.06,11.54,11.08,70000.0,9.86351
2012-10-17,11.7,11.23,11.44,11.68,85400.0,10.3976
2012-11-05,12.23,11.74,12.17,11.96,93900.0,10.6469
2012-11-20,11.23,10.99,11.21,11.04,22600.0,9.8279
2012-12-06,10.15,9.65,10.09,9.84,117300.0,8.75965
2012-12-21,9.77,9.49,9.72,9.61,125900.0,8.5549
2013-01-09,9.09,8.89,9.01,9.02,282800.0,8.02968
2013-01-25,8.55,8.25,8.35,8.53,126100.0,7.59348
2013-02-11,9.15,8.69,9.14,8.75,65900.0,7.78932
2013-02-27,8.01,7.8,7.8,7.93,39200.0,7.05935
2013-03-14,9.06,8.88,8.92,9.01,88500.0,8.02078
2013-04-01,8.58,8.33,8.49,8.37,70000.0,7.45104
2013-04-16,7.56,7.32,7.41,7.37,66300.0,6.56084
2013-05-01,7.92,7.7,7.83,7.74,54700.0,6.89021
2013-05-16,7.66,7.39,7.53,7.45,89700.0,6.63205
2013-06-03,7.39,7.03,7.34,7.19,121300.0,6.4006
2013-06-18,7.11,7.05,7.1,7.06,38500.0,6.28487
2013-07-03,6.26,5.98,6.1,6.19,49700.0,5.51039
2013-07-19,6.39,6.13,6.18,6.32,75800.0,5.62612
2013-08-05,7.35,6.56,6.68,7.28,261200.0,6.48072
2013-08-20,6.84,6.51,6.51,6.74,56800.0,6
2013-09-05,7.23,7.01,7.09,7.22,106900.0,6.4273
2013-09-20,7.79,7.54,7.78,7.66,98800.0,6.819
2013-10-07,9.24,8.8,9.24,9.06,235400.0,8.06529
2013-10-22,9.46,9.27,9.35,9.33,64200.0,8.30564
2013-11-06,9.59,9.1,9.59,9.19,174300.0,8.18101
2013-11-21,8.9,8.55,8.72,8.89,118000.0,7.91395
2013-12-09,9.2,8.45,9.2,8.65,442200.0,7.7003
2013-12-24,8.39,8.13,8.35,8.37,144300.0,7.45104
2014-01-10,8.1,7.88,7.93,8.02,152700.0,7.13947
2014-01-28,7.78,7.15,7.78,7.43,408800.0,6.61425
2014-02-12,7.28,7.12,7.12,7.22,101000.0,6.4273
2014-02-28,7.44,7.34,7.36,7.39,49100.0,6.57864
2014-03-17,8.23,7.71,7.91,7.75,364800.0,6.89911
2014-04-01,7.64,7.44,7.6,7.62,106200.0,6.78339
2014-04-16,7.62,7.46,7.49,7.61,277800.0,6.77449
2014-05-02,7.97,7.65,7.65,7.94,73100.0,7.06825
2014-05-19,7.02,6.49,6.49,6.59,79100.0,5.86647
2014-06-04,6.98,6.8,6.88,6.94,159900.0,6.27324
2014-06-19,7.21,7.05,7.08,7.11,120900.0,6.51704
2014-07-07,7.43,7.05,7.2,7.38,268400.0,6.76453
2014-07-22,6.77,6.59,6.62,6.69,55800.0,6.13207
2014-08-06,6.28,6.04,6.1,6.25,83900.0,5.72877
2014-08-21,6.51,6.31,6.36,6.49,200000.0,5.94875
2014-09-08,6.58,6.26,6.56,6.31,147600.0,5.78376
2014-09-23,6.15,5.96,5.96,6.03,137800.0,5.57091
2014-10-08,5.45,5.19,5.39,5.39,248900.0,4.97964
2014-10-23,4.93,4.76,4.93,4.78,181700.0,4.41608
2014-11-07,4.36,4.17,4.19,4.31,244200.0,3.98186
2014-11-24,4.08,3.73,4.08,3.82,227200.0,3.52917
2014-12-10,3.12,2.91,3.1,3.0,724400.0,2.7716
2014-12-26,3.67,3.45,3.61,3.49,104100.0,3.27894
2015-01-13,3.02,2.83,2.95,2.88,398900.0,2.70583
2015-01-29,2.82,2.67,2.82,2.76,222600.0,2.59309
2015-02-13,3.38,3.27,3.31,3.3,302300.0,3.10043
2015-03-03,3.09,2.96,3.0,3.02,174500.0,2.83736
2015-03-18,3.04,2.81,2.82,3.02,435000.0,2.88578
2015-04-02,3.82,3.67,3.67,3.75,286700.0,3.58334
2015-04-20,4.44,4.25,4.28,4.33,224600.0,4.13756
2015-05-05,4.77,4.53,4.7,4.57,290600.0,4.3669
2015-05-20,4.24,4.03,4.08,4.22,142000.0,4.03245
2015-06-05,4.1,3.94,3.96,4.08,91400.0,3.89867
2015-06-22,3.83,3.69,3.83,3.69,231000.0,3.5689
2015-07-08,3.89,3.7,3.7,3.79,150300.0,3.66562
2015-07-23,3.2,2.93,3.13,2.93,248100.0,2.83384
2015-08-07,3.18,2.83,2.99,2.87,248400.0,2.77581
2015-08-24,2.75,2.46,2.6,2.66,188000.0,2.5727
2015-09-09,2.97,2.64,2.82,2.64,181400.0,2.55336
2015-09-24,2.78,2.61,2.68,2.61,117800.0,2.57162
2015-10-09,3.1,2.99,3.08,3.02,83800.0,2.97559
2015-10-26,2.67,2.56,2.67,2.56,230600.0,2.52235
2015-11-10,2.75,2.63,2.68,2.65,149500.0,2.61103
2015-11-25,2.2,2.03,2.06,2.13,68000.0,2.09868
2015-12-11,1.71,1.64,1.67,1.66,109800.0,1.66
2015-12-29,1.81,1.69,1.7,1.74,96800.0,1.74
2016-01-14,1.35,1.22,1.26,1.33,152000.0,1.33
2016-02-01,1.41,1.34,1.4,1.37,41400.0,1.37
2016-02-17,1.42,1.25,1.25,1.39,167600.0,1.39
2016-03-03,1.66,1.48,1.48,1.63,294100.0,1.63
2016-03-18,1.74,1.64,1.72,1.69,138000.0,1.69
2016-04-05,1.68,1.62,1.65,1.62,139900.0,1.62
2016-04-20,2.02,1.89,1.9,1.93,186800.0,1.93
2016-05-05,1.92,1.84,1.92,1.86,59400.0,1.86
2016-05-20,1.82,1.7,1.82,1.75,263200.0,1.75
2016-06-07,1.78,1.71,1.73,1.78,100600.0,1.78
2016-06-22,1.89,1.72,1.72,1.83,116100.0,1.83
2016-07-08,1.77,1.74,1.75,1.75,39900.0,1.75
2016-07-25,1.73,1.6,1.7,1.62,67600.0,1.62
2016-08-09,1.64,1.59,1.61,1.6,81700.0,1.6
2016-08-24,2.03,1.9,1.95,1.91,99200.0,1.91
2016-09-09,2.18,2.0,2.0,2.16,223300.0,2.16
2016-09-26,1.94,1.85,1.92,1.87,120300.0,1.87
2016-10-11,2.15,2.05,2.12,2.07,110400.0,2.07
2016-10-26,1.92,1.83,1.92,1.86,134100.0,1.86
2016-11-10,1.87,1.78,1.82,1.81,47400.0,1.81
2016-11-28,1.8,1.76,1.78,1.77,17500.0,1.77
2016-12-13,1.87,1.76,1.78,1.83,102400.0,1.83
2016-12-29,1.72,1.68,1.69,1.68,56600.0,1.68
2017-01-17,1.86,1.76,1.78,1.8,64800.0,1.8
2017-02-01,1.76,1.69,1.73,1.72,106900.0,1.72
2017-02-16,1.8,1.73,1.75,1.73,62700.0,1.73
2017-03-06,1.64,1.58,1.6,1.59,80500.0,1.59
2017-03-21,1.57,1.51,1.57,1.52,34600.0,1.52
2017-04-05,1.62,1.56,1.6,1.58,47400.0,1.58
2017-04-21,1.58,1.47,1.54,1.53,119700.0,1.53
2017-05-08,1.51,1.39,1.39,1.47,101100.0,1.47
2017-05-23,1.64,1.51,1.64,1.57,77000.0,1.57
2017-06-08,1.4,1.35,1.39,1.36,110700.0,1.36
2017-06-23,1.32,1.25,1.25,1.32,26900.0,1.32
2017-07-11,1.29,1.26,1.27,1.27,24700.0,1.27
2017-07-26,1.36,1.33,1.35,1.34,63600.0,1.34
2017-08-10,1.28,1.17,1.28,1.25,115800.0,1.25
2017-08-25,1.3,1.21,1.3,1.26,63200.0,1.26
2017-09-12,1.23,1.16,1.23,1.17,127800.0,1.17
2017-09-27,1.37,1.32,1.33,1.36,99300.0,1.36
2017-10-12,1.64,1.58,1.64,1.62,82700.0,1.62
2017-10-27,1.6,1.54,1.56,1.6,34700.0,1.6
2017-11-13,1.52,1.46,1.52,1.5,59200.0,1.5
2017-11-29,1.46,1.38,1.46,1.44,107600.0,1.44
2017-12-14,1.34,1.31,1.34,1.33,102200.0,1.33
2018-01-02,1.48,1.44,1.47,1.46,54800.0,1.46
2018-01-18,1.49,1.44,1.45,1.47,59200.0,1.47
2018-02-02,1.47,1.4,1.44,1.44,65300.0,1.44
2018-02-20,1.33,1.31,1.31,1.33,28500.0,1.33
2018-03-07,1.32,1.27,1.3,1.28,64900.0,1.28
2018-03-22,1.45,1.41,1.41,1.45,23900.0,1.45
2018-04-09,1.33,1.25,1.29,1.27,134100.0,1.27
2018-04-24,1.63,1.55,1.56,1.58,270200.0,1.58
2018-05-09,2.14,2.02,2.02,2.12,620600.0,2.12
2018-05-24,2.45,2.29,2.4,2.31,392500.0,2.31
2018-06-11,2.42,2.3,2.39,2.37,482500.0,2.37
2018-06-26,2.48,2.38,2.43,2.44,511500.0,2.44
2018-07-12,3.89,3.66,3.89,3.76,1408600.0,3.76
2018-07-17,3.74,3.52,3.74,3.53,1010184.0,3.53